default:
  golem_name: editable
  golem_version: 0.1.0
  app_prod: no
  database:
    name: "adsl"
    path: "extdata"
    table: null
    id_column: "USUBJID"
  schema:
      STUDYID:
        type: "character"
        editable: false

      USUBJID:
        type: "character"
        editable: false

      SUBJID:
        type: "character"
        editable: false

      SITEID:
        type: "character"
        editable: false

      SITEGR1:
        type: "character"
        editable: false

      ARM:
        type: "factor"

      TRT01P:
        type: "factor"

      TRT01PN:
        type: "numeric"

      TRT01A:
        type: "factor"

      TRT01AN:
        type: "numeric"

      TRTSDT:
        type: "Date"

      TRTEDT:
        type: "Date"

      TRTDUR:
        type: "numeric"

      AVGDD:
        type: "numeric"

      CUMDOSE:
        type: "numeric"

      AGE:
        type: "numeric"

      AGEGR1:
        type: "factor"

      AGEGR1N:
        type: "numeric"

      AGEU:
        type: "factor"
        editable: false

      RACE:
        type: "factor"

      RACEN:
        type: "numeric"

      SEX:
        type: "factor"

      ETHNIC:
        type: "factor"

      SAFFL:
        type: "factor"

      ITTFL:
        type: "factor"

      EFFFL:
        type: "factor"

      COMP8FL:
        type: "factor"

      COMP16FL:
        type: "factor"

      COMP24FL:
        type: "factor"

      DISCONFL:
        type: "factor"

      DSRAEFL:
        type: "factor"

      DTHFL:
        type: "factor"

      BMIBL:
        type: "numeric"

      BMIBLGR1:
        type: "factor"

      HEIGHTBL:
        type: "numeric"

      WEIGHTBL:
        type: "numeric"

      EDUCLVL:
        type: "numeric"

      DISONSDT:
        type: "Date"

      DURDIS:
        type: "numeric"

      DURDSGR1:
        type: "factor"

      VISIT1DT:
        type: "Date"

      RFSTDTC:
        type: "Date"

      RFENDTC:
        type: "Date"

      VISNUMEN:
        type: "numeric"

      RFENDT:
        type: "Date"

      DCDECOD:
        type: "factor"

      DCREASCD:
        type: "factor"

      MMSETOT:
        type: "numeric"
